[
  {
    "resourceType": "Patient",
    "id": "patient-001",
    "active": true,
    "name": [
      {
        "family": "Smith",
        "given": ["John", "David"]
      }
    ],
    "gender": "male",
    "birthDate": "1985-03-15",
    "telecom": [
      {
        "system": "phone",
        "value": "555-1234",
        "use": "home"
      },
      {
        "system": "email",
        "value": "john.smith@example.com"
      }
    ],
    "address": [
      {
        "use": "home",
        "line": ["123 Main St"],
        "city": "Anytown",
        "state": "CA",
        "postalCode": "12345",
        "country": "US"
      }
    ]
  },
  {
    "resourceType": "Patient",
    "id": "patient-002",
    "active": true,
    "name": [
      {
        "family": "Johnson",
        "given": ["Sarah", "Marie"]
      }
    ],
    "gender": "female",
    "birthDate": "1992-07-22",
    "telecom": [
      {
        "system": "phone",
        "value": "555-5678",
        "use": "mobile"
      },
      {
        "system": "email",
        "value": "sarah.johnson@example.com"
      }
    ],
    "address": [
      {
        "use": "home",
        "line": ["456 Oak Avenue"],
        "city": "Springfield",
        "state": "NY",
        "postalCode": "67890",
        "country": "US"
      }
    ]
  },
  {
    "resourceType": "Observation",
    "id": "obs-001",
    "status": "final",
    "category": [
      {
        "coding": [
          {
            "system": "http://terminology.hl7.org/CodeSystem/observation-category",
            "code": "vital-signs",
            "display": "Vital Signs"
          }
        ]
      }
    ],
    "code": {
      "coding": [
        {
          "system": "http://loinc.org",
          "code": "85354-9",
          "display": "Blood pressure panel"
        }
      ]
    },
    "subject": {
      "reference": "Patient/patient-001"
    },
    "effectiveDateTime": "2023-12-01T10:30:00Z",
    "valueQuantity": {
      "value": 120,
      "unit": "mmHg",
      "system": "http://unitsofmeasure.org",
      "code": "mm[Hg]"
    }
  },
  {
    "resourceType": "Observation",
    "id": "obs-002",
    "status": "final",
    "category": [
      {
        "coding": [
          {
            "system": "http://terminology.hl7.org/CodeSystem/observation-category",
            "code": "laboratory",
            "display": "Laboratory"
          }
        ]
      }
    ],
    "code": {
      "coding": [
        {
          "system": "http://loinc.org",
          "code": "4548-4",
          "display": "Hemoglobin A1c"
        }
      ]
    },
    "subject": {
      "reference": "Patient/patient-002"
    },
    "effectiveDateTime": "2023-11-15T14:20:00Z",
    "valueQuantity": {
      "value": 6.8,
      "unit": "%",
      "system": "http://unitsofmeasure.org",
      "code": "%"
    }
  },
  {
    "resourceType": "MedicationRequest",
    "id": "med-001",
    "status": "active",
    "intent": "order",
    "medicationCodeableConcept": {
      "coding": [
        {
          "system": "http://www.nlm.nih.gov/research/umls/rxnorm",
          "code": "860975",
          "display": "Lisinopril 10 MG Oral Tablet"
        }
      ]
    },
    "subject": {
      "reference": "Patient/patient-001"
    },
    "authoredOn": "2023-12-01T10:45:00Z",
    "dosageInstruction": [
      {
        "text": "Take 1 tablet by mouth once daily",
        "route": {
          "coding": [
            {
              "system": "http://snomed.info/sct",
              "code": "26643006",
              "display": "Oral"
            }
          ]
        }
      }
    ]
  },
  {
    "resourceType": "Encounter",
    "id": "enc-001",
    "status": "finished",
    "class": {
      "system": "http://terminology.hl7.org/CodeSystem/v3-ActCode",
      "code": "AMB",
      "display": "ambulatory"
    },
    "type": [
      {
        "coding": [
          {
            "system": "http://snomed.info/sct",
            "code": "185349003",
            "display": "Encounter for check up"
          }
        ]
      }
    ],
    "subject": {
      "reference": "Patient/patient-001"
    },
    "period": {
      "start": "2023-12-01T10:00:00Z",
      "end": "2023-12-01T11:00:00Z"
    },
    "serviceProvider": {
      "reference": "Organization/org-001"
    }
  }
]